2theta chi X Y I
78.214775   1.633101   1027.110000   1293.280000   70931.270
64.331198   -20.838048   1379.170000   1553.580000   51933.840
68.682163   -15.368271   1288.110000   1460.160000   22795.070
105.604912   8.176517   926.220000   872.060000   19489.690
103.845762   27.858992   595.460000   876.440000   19058.790
120.579764   -8.904519   1183.270000   598.920000   17182.880
60.343604   26.480761   626.120000   1661.280000   15825.390
56.255241   12.958883   856.140000   1702.520000   15486.200
82.082644   -35.893641   1672.670000   1258.620000   13318.810
83.357874   -27.458648   1497.400000   1224.700000   13145.990
91.799606   -8.308537   1176.090000   1086.190000   11799.930
81.950853   17.525037   780.270000   1242.530000   11662.160
81.594121   14.542514   828.680000   1246.060000   10727.930
122.276611   14.866978   819.910000   552.840000   10271.900
114.924594   11.529917   873.560000   706.970000   10010.520
54.494590   -2.157851   1085.800000   1725.830000   9107.770
109.466810   -31.661194   1579.390000   754.630000   8515.140
94.639665   -10.938954   1216.490000   1042.280000   8262.020
127.784069   -26.742196   1481.200000   364.840000   6598.440
80.503502   37.209527   399.870000   1297.190000   6505.450
81.761460   30.377744   548.250000   1260.320000   6137.870
83.522097   -21.919480   1396.710000   1217.560000   5781.180
92.196432   -31.332068   1573.490000   1073.130000   5481.590
72.519433   -9.725100   1199.060000   1387.530000   5182.440
120.830636   -19.485806   1352.760000   568.030000   5055.990
97.245185   34.166816   467.050000   984.600000   4950.230
82.183703   25.665105   638.870000   1246.590000   4761.410
96.247791   5.532972   967.150000   1019.900000   4673.940
93.586611   4.860827   977.500000   1060.310000   4649.480
100.134899   22.021478   702.520000   949.880000   4413.680
108.434864   37.737616   383.770000   754.580000   4400.610
98.704233   -15.183322   1283.340000   976.690000   4305.200
132.706536   21.534438   707.200000   261.110000   4170.570
112.897947   -6.092299   1140.930000   748.400000   4160.120
64.375646   22.299075   701.050000   1560.170000   4044.720
92.492422   -38.358350   1730.330000   1063.320000   3856.170
109.570544   9.494633   905.640000   804.810000   3693.430
119.131457   -0.431899   1055.140000   634.640000   3277.590
108.748880   21.922714   703.420000   801.020000   3232.590
98.497612   41.504881   289.690000   945.970000   3125.110
89.849121   -6.658553   1151.050000   1115.850000   3088.730
101.585300   -18.597971   1339.110000   926.870000   2830.160
120.233140   -25.505744   1458.760000   556.690000   2775.350
81.234823   12.474456   861.480000   1250.420000   2670.740
79.711566   40.142609   327.890000   1321.030000   2634.420
112.736983   26.432732   621.540000   713.500000   2612.620
132.148851   -14.811119   1274.860000   306.950000   2377.760
115.330433   -15.073338   1280.510000   691.440000   2278.070
125.601794   -1.012107   1063.250000   497.790000   2195.880
74.523471   -28.642722   1520.650000   1382.650000   2124.740
97.758550   -39.799634   1765.960000   958.470000   2077.070
110.994061   -35.434820   1660.860000   706.310000   2052.310
103.488516   -3.429698   1101.370000   907.290000   1952.150
58.814659   -1.521187   1075.860000   1633.060000   1878.930
91.420418   -26.223100   1473.720000   1088.400000   1877.760
80.397246   -41.821827   1819.620000   1305.460000   1746.380
97.096348   -33.871004   1626.900000   982.640000   1676.950
95.770229   28.895847   576.200000   1016.970000   1646.400
82.200371   22.172641   701.500000   1242.550000   1591.710
105.118717   -23.684777   1426.670000   858.780000   1576.400
64.024287   9.358549   911.320000   1538.140000   1466.190
119.566819   13.538052   841.450000   613.020000   1399.400
125.722004   -11.252864   1219.190000   482.300000   1361.220
124.875967   -32.152337   1588.650000   403.050000   1343.440
65.551825   31.761018   521.920000   1574.920000   1331.830
94.869095   15.597630   810.650000   1039.110000   1277.200
134.545316   4.310313   982.110000   264.380000   1253.580
121.758039   30.688262   537.370000   496.910000   1183.420
93.164153   37.403805   393.710000   1057.160000   1105.270
93.267624   43.144551   245.420000   1050.380000   1055.910
114.142871   -0.062385   1050.010000   728.620000   1019.630
116.632621   41.129290   296.950000   544.570000   943.570
106.065957   32.105009   510.170000   824.170000   887.260
83.065590   -15.287234   1285.920000   1221.220000   860.610
100.467195   -2.665437   1090.080000   954.930000   797.370
111.728149   -37.608795   1711.330000   678.470000   772.050
116.188063   -20.891810   1377.040000   659.840000   708.970
127.000137   17.578735   775.110000   434.930000   706.880
105.492757   18.754630   757.840000   863.720000   703.030
91.601492   4.446616   983.890000   1090.230000   655.210
134.462269   8.035685   925.430000   261.100000   646.940
96.474361   -12.710825   1244.110000   1013.220000   550.970
119.571933   -29.294610   1530.970000   552.130000   492.940
# File created at Wed Jun 14 11:30:41 2023 with IOLaueTools.py
# From: /home/micha/lauetoolsgithub/LaueTools/Examples/Ge/calib_.dat
# Calibration parameters
# dd     :   67.96699785485059
# xcen     :   1050.7956643398297
# ycen     :   1116.328461438829
# xbet     :   0.15411943019776422
# xgam     :   -0.25445967502784694
# pixelsize     :   0.079142
# ypixelsize     :   0.079142