2theta chi X Y I
78.218661   1.633320   1027.110000   1293.280000   70931.270
64.333742   -20.839245   1379.170000   1553.580000   51933.840
68.685185   -15.369086   1288.110000   1460.160000   22795.070
105.609573   8.177203   926.220000   872.060000   19489.690
103.849683   27.860103   595.460000   876.440000   19058.790
120.583810   -8.904103   1183.270000   598.920000   17182.880
60.345260   26.482153   626.120000   1661.280000   15825.390
56.256607   12.959578   856.140000   1702.520000   15486.200
82.086441   -35.894860   1672.670000   1258.620000   13318.810
83.361981   -27.459611   1497.400000   1224.700000   13145.990
91.804379   -8.308602   1176.090000   1086.190000   11799.930
81.954704   17.525981   780.270000   1242.530000   11662.160
81.598031   14.543342   828.680000   1246.060000   10727.930
122.280117   14.867866   819.910000   552.840000   10271.900
114.928752   11.530731   873.560000   706.970000   10010.520
54.495873   -2.158162   1085.800000   1725.830000   9107.770
109.471051   -31.661539   1579.390000   754.630000   8515.140
94.644510   -10.939077   1216.490000   1042.280000   8262.020
127.787249   -26.741848   1481.200000   364.840000   6598.440
80.506483   37.210994   399.870000   1297.190000   6505.450
81.764826   30.379078   548.250000   1260.320000   6137.870
83.526328   -21.920248   1396.710000   1217.560000   5781.180
92.200793   -31.332900   1573.490000   1073.130000   5481.590
72.522853   -9.725545   1199.060000   1387.530000   5182.440
120.834561   -19.485601   1352.760000   568.030000   5055.990
97.248814   34.168049   467.050000   984.600000   4950.230
82.187288   25.666317   638.870000   1246.590000   4761.410
96.252556   5.533509   967.150000   1019.900000   4673.940
93.591333   4.861320   977.500000   1060.310000   4649.480
100.139154   22.022516   702.520000   949.880000   4413.680
108.438073   37.738707   383.770000   754.580000   4400.610
98.709094   -15.183525   1283.340000   976.690000   4305.200
132.708794   21.535327   707.200000   261.110000   4170.570
112.902512   -6.091955   1140.930000   748.400000   4160.120
64.377808   22.300258   701.050000   1560.170000   4044.720
92.496513   -38.359301   1730.330000   1063.320000   3856.170
109.575038   9.495377   905.640000   804.810000   3693.430
119.135574   -0.431314   1055.140000   634.640000   3277.590
108.752951   21.923717   703.420000   801.020000   3232.590
98.500779   41.506106   289.690000   945.970000   3125.110
89.853820   -6.658578   1151.050000   1115.850000   3088.730
101.590102   -18.598224   1339.110000   926.870000   2830.160
120.236981   -25.505656   1458.760000   556.690000   2775.350
81.238760   12.475198   861.480000   1250.420000   2670.740
79.714359   40.144119   327.890000   1321.030000   2634.420
112.740655   26.433762   621.540000   713.500000   2612.620
132.151762   -14.810486   1274.860000   306.950000   2377.760
115.334811   -15.073184   1280.510000   691.440000   2278.070
125.605352   -1.011434   1063.250000   497.790000   2195.880
74.526929   -28.643961   1520.650000   1382.650000   2124.740
97.762633   -39.800440   1765.960000   958.470000   2077.070
110.998089   -35.435162   1660.860000   706.310000   2052.310
103.493398   -3.429410   1101.370000   907.290000   1952.150
58.816472   -1.521385   1075.860000   1633.060000   1878.930
91.424917   -26.223821   1473.720000   1088.400000   1877.760
80.400744   -41.823197   1819.620000   1305.460000   1746.380
97.100692   -33.871750   1626.900000   982.640000   1676.950
95.774140   28.897035   576.200000   1016.970000   1646.400
82.204086   22.173747   701.500000   1242.550000   1591.710
105.123350   -23.685087   1426.670000   858.780000   1576.400
64.026616   9.359068   911.320000   1538.140000   1466.190
119.570589   13.538917   841.450000   613.020000   1399.400
125.725589   -11.252373   1219.190000   482.300000   1361.220
124.879252   -32.152145   1588.650000   403.050000   1343.440
65.553890   31.762553   521.920000   1574.920000   1331.830
94.873567   15.598508   810.650000   1039.110000   1277.200
134.547837   4.311194   982.110000   264.380000   1253.580
121.760901   30.689207   537.370000   496.910000   1183.420
93.167557   37.405106   393.710000   1057.160000   1105.270
93.270669   43.145855   245.420000   1050.380000   1055.910
114.147324   -0.061857   1050.010000   728.620000   1019.630
116.635225   41.130208   296.950000   544.570000   943.570
106.069588   32.106132   510.170000   824.170000   887.260
83.069878   -15.287746   1285.920000   1221.220000   860.610
100.472099   -2.665162   1090.080000   954.930000   797.370
111.732050   -37.609129   1711.330000   678.470000   772.050
116.192290   -20.891764   1377.040000   659.840000   708.970
127.003117   17.579645   775.110000   434.930000   706.880
105.497070   18.755584   757.840000   863.720000   703.030
91.606160   4.447078   983.890000   1090.230000   655.210
134.464726   8.036584   925.430000   261.100000   646.940
96.479227   -12.710983   1244.110000   1013.220000   550.970
119.575712   -29.294595   1530.970000   552.130000   492.940
# File created at Wed Jun 14 15:39:12 2023 with IOLaueTools.py
# From: /home/micha/lauetoolsgithub/LaueTools/Examples/Ge/Ge0001.dat
# Calibration parameters
# dd     :   67.96408151242893
# xcen     :   1050.8000084074636
# ycen     :   1116.4285060733073
# xbet     :   0.15613492437608079
# xgam     :   -0.2538603409890709
# pixelsize     :   0.079142
# ypixelsize     :   0.079142