#CCD Geometry Refinement from experimental file: /home/micha/lauetoolsgithub/LaueTools/LaueImages/Ge_blanc_0000_LT_5.dat
#File created at Thu Mar 30 15:22:15 2023 with DetectorCalibration.py
#Number of indexed spots: 95
#Element
#Ge
#Mean Deviation(pixel): 0.191
#spot_index Itot h k l Xtheo Ytheo Xexp Yexp XdevCalib YdevCalib pixDevCalib 2theta_theo chi_theo Energy PeakAmplitude Imax PeakBkg PeakFwhm1 PeakFwhm2 PeakTilt XdevPeakFit YdevPeakFit
0.000000 29239.300000 4.000000 2.000000 2.000000 623.071210 1657.755200 623.120000 1657.730000 -0.048790 0.025200 0.054920 58.428570 20.131020 10.998010 29239.300000 28899.000000 90.740000 0.750000 0.860000 285.480000 0.120000 -0.270000
1.000000 21725.720000 3.000000 3.000000 3.000000 933.028210 1215.391520 933.040000 1215.440000 -0.011790 -0.048480 0.049890 80.929240 0.660200 8.773010 21725.720000 19569.000000 116.480000 0.770000 0.800000 299.630000 0.040000 0.440000
2.000000 21119.580000 2.000000 2.000000 4.000000 1244.293530 1662.101580 1244.330000 1662.150000 -0.036470 -0.048420 0.060620 57.641310 -18.417800 11.135070 21119.580000 20138.000000 69.650000 0.670000 0.690000 207.850000 0.330000 0.150000
3.000000 9264.990000 4.000000 6.000000 2.000000 585.406850 588.781900 585.220000 588.800000 0.186850 -0.018100 0.187720 116.818810 21.280860 9.626020 9264.990000 9085.000000 79.810000 0.770000 0.790000 215.150000 0.220000 -0.200000
4.000000 8980.300000 2.000000 6.000000 4.000000 1276.596760 600.341020 1276.610000 600.300000 -0.013240 0.041020 0.043100 115.963650 -20.738410 9.670670 8980.300000 7901.000000 78.450000 0.890000 0.750000 357.730000 -0.390000 0.300000
5.000000 6748.130000 3.000000 5.000000 3.000000 932.751300 750.138670 932.670000 750.080000 0.081300 0.058670 0.100260 109.765850 0.320960 8.783940 6748.130000 6387.000000 97.730000 0.760000 0.710000 258.370000 -0.330000 0.080000
6.000000 6070.920000 1.000000 5.000000 5.000000 1596.458270 935.318580 1596.620000 935.360000 -0.161730 -0.041420 0.166950 96.656640 -36.234770 10.475650 6070.920000 5398.000000 64.400000 0.800000 0.770000 332.030000 -0.380000 0.360000
7.000000 5546.180000 3.000000 3.000000 5.000000 1168.146660 1512.735890 1168.360000 1512.820000 -0.213340 -0.084110 0.229330 64.222670 -13.970230 13.516800 5546.180000 4837.000000 67.130000 0.720000 0.750000 61.280000 0.360000 -0.180000
8.000000 5535.090000 5.000000 5.000000 1.000000 252.488660 920.439670 252.360000 920.600000 0.128660 -0.160330 0.205570 98.087340 37.486880 10.361310 5535.090000 4988.000000 64.020000 0.820000 0.790000 156.590000 0.360000 -0.400000
9.000000 5092.310000 0.000000 4.000000 4.000000 1946.166890 914.470350 1945.880000 914.240000 0.286890 0.230350 0.367930 96.196520 -48.322120 8.327780 5092.310000 5264.000000 50.700000 0.980000 0.900000 30.330000 -0.120000 0.240000
10.000000 4933.940000 3.000000 7.000000 3.000000 934.075130 369.133680 934.030000 369.310000 0.045130 -0.176320 0.182000 127.953650 -0.052490 9.980680 4933.940000 4832.000000 65.880000 0.830000 0.870000 155.240000 0.030000 0.310000
11.000000 4886.490000 5.000000 3.000000 3.000000 698.765930 1509.630590 698.690000 1509.530000 0.075930 0.100590 0.126030 64.830900 15.579950 13.403630 4886.490000 3871.000000 67.920000 0.760000 0.820000 311.500000 -0.310000 -0.470000
12.000000 4836.620000 2.000000 4.000000 6.000000 1407.863730 1368.492460 1407.750000 1368.170000 0.113730 0.322460 0.341930 73.297000 -27.442260 13.736830 4836.620000 4621.000000 65.060000 0.850000 0.660000 152.460000 -0.250000 0.170000
13.000000 4496.050000 6.000000 4.000000 2.000000 451.231360 1362.603350 451.120000 1362.440000 0.111360 0.163350 0.197700 74.424610 28.990050 13.558160 4496.050000 4038.000000 64.880000 0.820000 0.730000 13.520000 0.120000 -0.560000
14.000000 4238.670000 2.000000 4.000000 2.000000 933.290220 555.937260 933.370000 555.810000 -0.079780 0.127260 0.150200 119.866260 0.138820 6.202480 4238.670000 3871.000000 78.160000 0.720000 0.680000 312.510000 0.370000 -0.190000
15.000000 4002.470000 1.000000 3.000000 5.000000 1563.744830 1485.193980 1563.830000 1485.130000 -0.085170 0.063980 0.106520 68.808660 -34.748210 11.472550 4002.470000 3868.000000 47.590000 0.760000 0.890000 18.960000 -0.170000 0.130000
16.000000 3992.920000 3.000000 5.000000 5.000000 1175.868030 1054.219280 1175.930000 1054.070000 -0.061970 0.149280 0.161630 90.974110 -14.687080 11.802590 3992.920000 4090.000000 96.600000 0.680000 0.680000 249.960000 -0.070000 0.070000
17.000000 3616.030000 5.000000 3.000000 1.000000 289.963360 1478.749910 289.850000 1478.770000 0.113360 -0.020090 0.115130 70.196340 36.412990 11.274030 3616.030000 3505.000000 49.790000 0.660000 0.780000 343.920000 -0.150000 -0.230000
18.000000 3370.030000 4.000000 6.000000 6.000000 1126.692870 1079.271430 1126.590000 1079.150000 0.102870 0.121430 0.159150 89.451580 -11.687470 14.606360 3370.030000 3154.000000 99.880000 0.760000 0.560000 238.370000 -0.410000 0.150000
19.000000 3235.520000 5.000000 5.000000 3.000000 687.365510 1049.741270 687.530000 1049.510000 -0.164490 0.231270 0.283800 91.602160 15.848130 11.739510 3235.520000 2474.000000 95.340000 0.790000 0.750000 216.430000 -0.470000 0.510000
20.000000 2603.550000 7.000000 5.000000 3.000000 547.904880 1309.000470 547.970000 1308.920000 -0.065120 0.080470 0.103520 76.652800 23.970490 16.097040 2603.550000 2664.000000 72.580000 0.590000 0.590000 239.060000 -0.030000 -0.080000
21.000000 2549.490000 6.000000 6.000000 4.000000 737.375610 1075.822130 737.410000 1075.840000 -0.034390 -0.017870 0.038750 89.958720 12.865850 14.541520 2549.490000 2279.000000 98.530000 0.810000 0.840000 80.770000 0.410000 -0.160000
22.000000 2364.650000 5.000000 3.000000 5.000000 935.483020 1663.227950 935.720000 1663.390000 -0.236980 -0.162050 0.287090 56.381960 0.849230 17.815670 2364.650000 1992.000000 52.430000 0.860000 0.830000 174.220000 -0.280000 0.390000
23.000000 1908.090000 3.000000 7.000000 5.000000 1185.759660 728.147910 1185.940000 728.120000 -0.180340 0.027910 0.182490 110.135760 -15.450310 12.176200 1908.090000 2019.000000 82.900000 0.690000 0.790000 152.490000 -0.060000 0.120000
24.000000 1845.350000 6.000000 8.000000 2.000000 410.023890 634.539470 410.070000 634.530000 -0.046110 0.009470 0.047070 113.101640 30.342090 13.392220 1845.350000 1686.000000 59.950000 0.680000 0.730000 154.910000 0.070000 0.530000
25.000000 1682.040000 5.000000 7.000000 3.000000 677.559220 720.910880 677.650000 720.680000 -0.090780 0.230880 0.248090 110.784910 16.135040 12.128410 1682.040000 1458.000000 82.560000 0.700000 0.870000 90.850000 -0.350000 -0.320000
26.000000 1617.900000 2.000000 8.000000 6.000000 1446.269080 651.052360 1446.250000 650.850000 0.019080 0.202360 0.203260 111.911010 -29.551090 13.485510 1617.900000 1574.000000 60.380000 0.760000 0.770000 348.050000 0.250000 -0.150000
27.000000 1608.220000 3.000000 5.000000 7.000000 1313.691710 1314.104380 1313.480000 1313.960000 0.211710 0.144380 0.256250 75.712060 -22.491820 16.266520 1608.220000 1491.000000 72.930000 0.760000 0.810000 2.900000 0.480000 -0.040000
28.000000 1391.970000 8.000000 6.000000 2.000000 344.197240 1239.566520 344.230000 1239.470000 -0.032760 0.096520 0.101930 81.550760 33.881440 17.109500 1391.970000 1258.000000 59.280000 0.800000 0.690000 11.660000 0.230000 0.470000
29.000000 1328.980000 1.000000 5.000000 7.000000 1654.331220 1307.297920 1654.150000 1307.210000 0.181220 0.087920 0.201420 77.963540 -38.524200 15.084350 1328.980000 1347.000000 47.090000 0.750000 0.890000 305.500000 0.150000 0.210000
30.000000 1291.240000 2.000000 6.000000 8.000000 1509.924550 1247.642130 1509.850000 1247.400000 0.074550 0.242130 0.253350 80.246990 -32.395130 17.339360 1291.240000 1261.000000 59.800000 0.760000 0.760000 302.140000 -0.150000 0.400000
31.000000 1214.140000 6.000000 8.000000 6.000000 932.576390 962.441770 932.380000 962.770000 0.196390 -0.328230 0.382490 97.026450 0.494560 17.057750 1214.140000 1220.000000 105.110000 0.750000 0.740000 184.600000 0.380000 -0.230000
32.000000 1211.990000 7.000000 7.000000 3.000000 534.606510 987.311400 534.730000 987.240000 -0.123490 0.071400 0.142640 95.245350 24.391100 15.342910 1211.990000 1165.000000 81.260000 0.700000 0.660000 235.670000 -0.270000 0.240000
33.000000 1198.630000 3.000000 9.000000 5.000000 1197.050320 440.637710 1197.120000 440.750000 -0.069680 -0.112290 0.132160 123.820670 -16.264300 13.319050 1198.630000 1236.000000 59.190000 0.670000 0.640000 167.000000 0.120000 -0.250000
34.000000 1163.110000 5.000000 7.000000 5.000000 932.572980 917.725480 932.610000 917.780000 -0.037020 -0.054520 0.065900 99.819630 0.460490 14.250670 1163.110000 1095.000000 103.300000 0.820000 0.870000 286.520000 -0.390000 -0.220000
35.000000 1085.860000 4.000000 10.000000 6.000000 1139.878240 573.398160 1139.900000 573.300000 -0.021760 0.098160 0.100540 118.305000 -12.785310 15.734790 1085.860000 1048.000000 72.160000 0.670000 0.860000 359.450000 -0.100000 0.300000
36.000000 1075.170000 1.000000 5.000000 3.000000 1468.566630 361.784770 1468.650000 361.630000 -0.083370 0.154770 0.175790 123.888730 -30.688490 7.345490 1075.170000 943.000000 45.690000 0.920000 0.980000 121.340000 -0.350000 -0.370000
37.000000 960.750000 4.000000 8.000000 8.000000 1258.464360 1018.706440 1258.220000 1018.940000 0.244360 -0.233560 0.338020 93.029260 -19.532500 18.122200 960.750000 1045.000000 88.170000 0.720000 0.620000 63.950000 0.220000 -0.060000
38.000000 949.260000 6.000000 10.000000 4.000000 725.053690 566.293290 725.020000 566.040000 0.033690 0.253290 0.255520 118.840600 13.166830 15.691150 949.260000 1037.000000 71.970000 0.780000 0.780000 138.180000 0.020000 0.040000
39.000000 915.010000 7.000000 5.000000 1.000000 193.026120 1298.333680 193.040000 1297.880000 -0.013880 0.453680 0.453890 79.474590 40.105080 14.843780 915.010000 932.000000 46.690000 0.920000 1.000000 131.840000 0.040000 -0.120000
40.000000 913.550000 3.000000 7.000000 7.000000 1325.101580 995.213950 1324.800000 995.510000 0.301580 -0.296050 0.422610 94.282300 -23.239140 15.462020 913.550000 862.000000 81.720000 0.790000 0.850000 198.650000 -0.200000 -0.490000
41.000000 889.130000 5.000000 5.000000 7.000000 1090.903000 1392.792970 1090.900000 1393.150000 0.003000 -0.357030 0.357040 70.377600 -9.274510 18.918500 889.130000 961.000000 78.000000 0.710000 0.760000 332.470000 -0.100000 0.150000
42.000000 888.690000 3.000000 5.000000 1.000000 388.846930 338.261500 388.800000 338.250000 0.046930 0.011500 0.048320 125.113110 31.080860 7.304310 888.690000 879.000000 45.360000 1.020000 0.970000 317.870000 -0.200000 0.250000
43.000000 882.020000 8.000000 8.000000 4.000000 603.010810 1012.383620 602.910000 1012.550000 0.100810 -0.166380 0.194540 93.849170 20.680990 18.000500 882.020000 896.000000 87.620000 0.730000 0.660000 186.420000 -0.090000 -0.450000
44.000000 850.420000 7.000000 7.000000 5.000000 770.468290 1094.924420 770.710000 1094.860000 -0.241710 0.064420 0.250150 88.731780 10.852110 17.379000 850.420000 855.000000 99.170000 0.850000 0.650000 183.620000 -0.290000 -0.140000
45.000000 845.700000 1.000000 3.000000 3.000000 1425.968920 966.978280 1425.820000 966.890000 0.148920 0.088280 0.173120 95.605670 -28.470140 6.446900 845.700000 906.000000 71.290000 0.820000 0.780000 102.480000 -0.180000 -0.110000
46.000000 839.080000 7.000000 5.000000 5.000000 775.757320 1390.674920 775.770000 1390.560000 -0.012680 0.114920 0.115620 70.792880 10.780930 18.821890 839.080000 763.000000 78.300000 0.880000 0.720000 86.560000 -0.230000 -0.440000
47.000000 750.640000 1.000000 7.000000 7.000000 1682.799940 925.447240 1682.610000 925.320000 0.189940 0.127240 0.228620 96.784170 -39.667080 14.580880 750.640000 669.000000 49.820000 0.710000 0.790000 198.550000 0.610000 0.320000
48.000000 709.200000 7.000000 7.000000 1.000000 161.428280 908.258080 161.430000 908.130000 -0.001720 0.128080 0.128090 98.327300 40.966890 14.409860 709.200000 707.000000 49.370000 0.740000 0.790000 195.880000 0.430000 0.130000
49.000000 678.940000 5.000000 9.000000 3.000000 667.920780 430.137230 667.820000 430.080000 0.100780 0.057230 0.115890 124.492300 16.442700 13.277740 678.940000 703.000000 58.820000 0.890000 0.890000 248.770000 -0.180000 0.080000
50.000000 664.700000 6.000000 4.000000 6.000000 934.813270 1568.062470 934.790000 1568.150000 0.023270 -0.087530 0.090570 60.880910 0.818430 20.287880 664.700000 692.000000 61.290000 0.710000 0.780000 85.440000 -0.210000 0.150000
51.000000 636.530000 5.000000 9.000000 5.000000 932.931700 671.040410 932.820000 671.120000 0.111700 -0.079590 0.137160 114.084570 0.249160 14.946290 636.530000 695.000000 84.800000 0.880000 0.840000 187.130000 -0.180000 0.120000
52.000000 632.350000 5.000000 7.000000 7.000000 1094.072790 1097.723250 1094.100000 1097.530000 -0.027210 0.193250 0.195160 88.307170 -9.657990 17.445210 632.350000 651.000000 99.390000 0.810000 0.860000 339.910000 0.100000 0.530000
53.000000 621.590000 3.000000 3.000000 1.000000 430.430600 956.562860 430.530000 956.400000 -0.099400 0.162860 0.190800 96.764070 29.646300 6.388670 621.590000 544.000000 69.880000 0.900000 0.870000 341.340000 0.530000 0.400000
54.000000 520.970000 5.000000 7.000000 1.000000 214.652280 493.177080 214.970000 493.350000 -0.317720 -0.172920 0.361730 117.021420 38.635990 11.127870 520.970000 558.000000 43.960000 0.970000 0.810000 36.110000 -0.030000 0.350000
55.000000 520.780000 5.000000 9.000000 7.000000 1098.219610 867.094220 1098.220000 867.260000 -0.000390 -0.165780 0.165780 102.612700 -10.058640 17.477940 520.780000 563.000000 95.520000 0.650000 0.680000 77.120000 0.220000 0.260000
56.000000 519.850000 7.000000 9.000000 5.000000 766.013110 863.171130 766.010000 863.170000 0.003110 0.001130 0.003310 103.047060 10.926630 17.425160 519.850000 603.000000 95.160000 0.650000 0.740000 2.730000 0.010000 0.170000
57.000000 493.670000 8.000000 10.000000 2.000000 304.398290 671.445460 304.020000 671.550000 0.378290 -0.104540 0.392470 110.404410 35.129810 17.294900 493.670000 519.000000 53.140000 0.760000 0.770000 157.390000 0.020000 -0.450000
58.000000 482.300000 3.000000 9.000000 7.000000 1337.839710 737.166350 1337.880000 737.010000 -0.040290 0.156350 0.161450 108.597770 -24.020470 15.907790 482.300000 547.000000 71.110000 0.840000 0.870000 176.490000 -0.120000 0.010000
59.000000 464.700000 2.000000 10.000000 8.000000 1547.380040 690.477620 1547.310000 690.310000 0.070040 0.167620 0.181670 109.048070 -34.185980 17.439570 464.700000 489.000000 54.330000 0.780000 0.860000 181.910000 0.310000 0.310000
60.000000 454.970000 5.000000 11.000000 5.000000 933.736260 443.414200 933.840000 443.720000 -0.103740 -0.305800 0.322920 124.926060 0.025180 16.158920 454.970000 481.000000 64.430000 0.680000 0.730000 343.060000 -0.160000 -0.280000
61.000000 452.500000 3.000000 11.000000 5.000000 1209.585650 161.475140 1209.490000 161.580000 0.095650 -0.104860 0.141930 133.814890 -17.133890 14.829800 452.500000 367.000000 41.110000 0.760000 0.750000 296.630000 -0.510000 -0.420000
62.000000 452.230000 1.000000 9.000000 7.000000 1713.898230 607.624740 1714.010000 607.740000 -0.111770 -0.115260 0.160550 110.976690 -40.853540 15.219480 452.230000 470.000000 42.030000 0.770000 0.780000 311.510000 0.010000 -0.260000
63.000000 448.370000 7.000000 9.000000 3.000000 521.798800 725.567340 522.050000 725.540000 -0.251200 0.027340 0.252690 109.584100 24.833340 15.810580 448.370000 456.000000 70.510000 0.820000 0.900000 142.030000 0.050000 -0.460000
64.000000 411.280000 5.000000 11.000000 3.000000 657.951150 147.256040 657.940000 147.210000 0.011150 0.046040 0.047370 134.510520 16.773430 14.791790 411.280000 440.000000 41.350000 0.680000 0.780000 187.990000 -0.060000 0.210000
65.000000 387.210000 3.000000 11.000000 7.000000 1351.700390 503.030290 1351.740000 502.870000 -0.039610 0.160290 0.165120 119.644840 -24.837880 16.957930 387.210000 430.000000 56.620000 0.680000 0.610000 70.160000 -0.260000 -0.130000
66.000000 374.320000 1.000000 7.000000 5.000000 1633.597010 519.792030 1633.590000 519.800000 0.007010 -0.007970 0.010610 115.545760 -37.805960 11.217280 374.320000 355.000000 42.640000 0.870000 0.930000 324.070000 -0.410000 -0.200000
67.000000 357.430000 7.000000 3.000000 3.000000 563.605250 1803.622830 563.660000 1803.550000 -0.054750 0.072830 0.091110 53.090920 23.570020 20.068580 357.430000 352.000000 32.900000 0.910000 0.820000 22.340000 -0.340000 0.550000
68.000000 319.850000 7.000000 11.000000 3.000000 508.829090 487.240620 508.830000 487.160000 -0.000910 0.080620 0.080620 120.655470 25.298880 16.872060 319.850000 366.000000 55.900000 0.780000 0.710000 102.760000 -0.170000 0.160000
69.000000 283.300000 3.000000 3.000000 7.000000 1304.437170 1809.487930 1304.570000 1809.730000 -0.132830 -0.242070 0.276120 52.171580 -21.776590 20.396790 283.300000 281.000000 31.140000 0.840000 0.670000 338.390000 -0.430000 -0.270000
71.000000 261.800000 1.000000 7.000000 9.000000 1710.274030 1216.717120 1710.210000 1216.570000 0.064030 0.147120 0.160450 82.587230 -40.666470 19.003900 261.800000 287.000000 44.530000 0.640000 0.890000 99.950000 0.210000 0.570000
72.000000 236.430000 9.000000 7.000000 1.000000 133.218050 1205.552890 132.990000 1205.660000 0.228050 -0.107110 0.251950 84.165590 42.207900 18.712240 236.430000 269.000000 44.260000 0.760000 0.780000 191.430000 -0.010000 -0.340000
73.000000 218.600000 5.000000 11.000000 7.000000 1102.993190 664.552660 1102.990000 664.570000 0.003190 -0.017340 0.017630 113.960800 -10.477600 18.248180 218.600000 273.000000 79.860000 0.680000 0.710000 17.290000 -0.010000 0.570000
74.000000 215.070000 9.000000 7.000000 3.000000 444.120810 1210.802990 444.020000 1210.750000 0.100810 0.052990 0.113890 82.639460 29.204610 19.565420 215.070000 271.000000 67.160000 0.720000 0.830000 97.030000 0.020000 -0.250000
75.000000 206.330000 7.000000 11.000000 5.000000 761.883500 659.316000 761.830000 659.410000 0.053500 -0.094000 0.108160 114.405340 11.004750 18.202420 206.330000 265.000000 80.260000 0.810000 0.640000 186.080000 -0.170000 0.410000
76.000000 204.650000 4.000000 14.000000 6.000000 1156.085920 125.884480 1156.070000 126.080000 0.015920 -0.195520 0.196170 135.358170 -14.008710 18.652960 204.650000 254.000000 39.780000 0.710000 0.720000 202.330000 0.070000 0.080000
77.000000 192.750000 7.000000 9.000000 1.000000 129.168680 580.492280 129.440000 580.540000 -0.271320 -0.047720 0.275480 112.552760 41.870080 15.078310 192.750000 203.000000 41.870000 0.920000 0.870000 26.960000 -0.560000 0.540000
79.000000 166.140000 1.000000 9.000000 9.000000 1734.953090 921.156180 1734.860000 921.160000 0.093090 -0.003820 0.093170 96.766360 -41.588260 18.711980 166.140000 207.000000 45.490000 0.840000 1.000000 204.380000 -0.140000 0.160000
80.000000 156.960000 3.000000 7.000000 9.000000 1413.617310 1217.893340 1413.520000 1217.940000 0.097310 -0.046660 0.107920 81.501740 -27.779190 19.789890 156.960000 198.000000 67.280000 0.840000 0.830000 267.800000 0.520000 -0.060000
81.000000 149.900000 5.000000 13.000000 5.000000 934.839430 220.938810 935.050000 220.930000 -0.210570 0.008810 0.210760 133.305340 -0.212620 17.661190 149.900000 197.000000 47.240000 0.820000 0.810000 169.840000 0.050000 -0.070000
82.000000 142.220000 6.000000 14.000000 4.000000 712.872630 114.138860 712.780000 114.140000 0.092630 -0.001140 0.092640 135.925490 13.504840 18.615350 142.220000 186.000000 40.100000 0.840000 0.870000 199.340000 -0.220000 0.140000
83.000000 135.990000 6.000000 10.000000 8.000000 1073.807390 909.786050 1073.910000 909.930000 -0.102610 -0.143950 0.176780 100.097140 -8.512120 20.213870 135.990000 235.000000 98.230000 0.750000 0.650000 3.130000 -0.090000 -0.070000
84.000000 123.190000 9.000000 9.000000 1.000000 106.104500 902.568860 106.180000 902.720000 -0.075500 -0.151140 0.168950 98.370040 42.918190 18.484000 123.190000 164.000000 44.260000 0.780000 0.850000 330.740000 0.180000 -0.280000
85.000000 115.040000 7.000000 9.000000 7.000000 932.593300 995.305570 932.790000 995.770000 -0.196700 -0.464430 0.504370 94.949280 0.518700 19.891560 115.040000 215.000000 104.930000 0.770000 0.770000 190.460000 -0.210000 -0.230000
86.000000 101.760000 3.000000 13.000000 7.000000 1366.651880 276.874820 1366.910000 276.850000 -0.258120 0.024820 0.259310 128.274730 -25.693580 18.346090 101.760000 145.000000 42.560000 0.870000 0.810000 16.880000 -0.090000 -0.150000
87.000000 95.720000 7.000000 13.000000 3.000000 495.379420 256.436140 495.120000 256.300000 0.259420 0.136140 0.292980 129.310730 25.789540 18.266780 95.720000 135.000000 42.630000 0.800000 0.820000 15.250000 0.120000 0.300000
88.000000 92.200000 8.000000 10.000000 6.000000 790.646740 906.633910 790.580000 906.970000 0.066740 -0.336090 0.342660 100.469250 9.438910 20.159140 92.200000 182.000000 98.060000 0.860000 0.830000 270.790000 -0.420000 -0.030000
89.000000 79.200000 1.000000 11.000000 9.000000 1761.382120 663.502420 1761.760000 663.320000 -0.377880 0.182420 0.419610 108.132720 -42.536310 19.280680 79.200000 114.000000 39.640000 0.930000 0.910000 58.350000 -0.240000 0.320000
90.000000 60.370000 5.000000 13.000000 7.000000 1108.259520 474.483200 1108.280000 474.390000 -0.020480 0.093200 0.095420 123.016080 -10.916100 19.434290 60.370000 119.000000 63.600000 0.780000 0.810000 294.030000 0.280000 0.390000
91.000000 56.980000 9.000000 11.000000 3.000000 416.874340 737.307730 416.830000 737.400000 0.044340 -0.092270 0.102370 108.215120 30.105560 19.646690 56.980000 112.000000 62.330000 0.900000 0.920000 182.810000 -0.170000 0.400000
92.000000 54.640000 10.000000 8.000000 2.000000 270.975510 1169.484350 270.720000 1169.380000 0.255510 0.104350 0.276000 85.459470 36.940960 20.930310 54.640000 96.000000 53.800000 0.640000 0.560000 88.420000 -0.280000 0.380000
93.000000 54.120000 7.000000 13.000000 5.000000 757.857220 467.797650 757.810000 467.930000 0.047220 -0.132350 0.140520 123.471290 11.086720 19.392630 54.120000 119.000000 63.710000 0.760000 1.010000 43.590000 -0.190000 -0.070000
94.000000 53.460000 3.000000 11.000000 9.000000 1439.279280 751.680360 1439.620000 751.850000 -0.340720 -0.169640 0.380610 107.035390 -29.184670 19.795220 53.460000 112.000000 63.650000 0.770000 0.880000 197.680000 -0.380000 -0.150000
95.000000 46.000000 2.000000 14.000000 8.000000 1590.728500 223.214880 1590.950000 223.360000 -0.221500 -0.145120 0.264800 126.962730 -36.111020 19.896570 46.000000 78.000000 34.480000 0.930000 0.880000 327.510000 -0.050000 0.360000
96.000000 42.390000 9.000000 9.000000 5.000000 651.368430 1032.849600 651.170000 1033.190000 0.198430 -0.340400 0.394020 92.637620 17.943000 20.718730 42.390000 133.000000 90.230000 0.790000 0.870000 157.180000 0.170000 0.190000
#UB matrix in q= (UB) B0 G* 
#[[-0.071476709 -0.99582593  -0.056760883]
# [ 0.720618491 -0.012210383 -0.693224276]
# [ 0.689637637 -0.090452332  0.718483337]]
#Umatrix in q_lab= (Umatrix) (B) B0 G* 
#[[-0.071476709 -0.99582593  -0.056760883]
# [ 0.720618491 -0.012210383 -0.693224276]
# [ 0.689637637 -0.090452332  0.718483337]]
#Bmatrix in q_lab= (U) (Bmatrix) B0 G* 
#[[ 1.  0. -0.]
# [ 0.  1.  0.]
# [ 0. -0.  1.]]
#(B-I)*1000 
#[[ 0.  0. -0.]
# [ 0.  0.  0.]
# [ 0. -0.  0.]]
#HKL coord. of lab and sample frame axes :
#HKLx_lab_LT	[-0.072 -1.    -0.057]
#HKLy_lab_LT	[ 1.    -0.017 -0.962]
#HKLz_lab_LT	[ 0.96  -0.126  1.   ]
#HKLx_sample_LT	[ 0.473 -1.     0.51 ]
#HKLy_sample_LT	[ 1.    -0.017 -0.962]
#HKLz_sample_LT	[0.978 0.973 1.   ]
#B0 matrix in q= UB (B0) G*
#[[ 0.17675652 -0.         -0.        ]
# [ 0.          0.17675652 -0.        ]
# [ 0.          0.          0.17675652]]
#UBB0 matrix in q= (UB B0) G* i.e. recip. basis vectors are columns in LT frame: astar = UBB0[:,0], bstar = UBB0[:,1], cstar = UBB0[:,2]. (abcstar as columns on xyzlab1, xlab1 = ui, ui = unit vector along incident beam)
#[[-0.01263397 -0.17601872 -0.01003286]
# [ 0.12737402 -0.00215826 -0.12253191]
# [ 0.12189795 -0.01598804  0.12699661]]
#Euler angles phi theta psi (deg)
#[ 82.528  44.071 175.319]
#CCDLabel
#MARCCD165
#DetectorParameters
#[70.775, 941.736, 1082.562, 0.63, -0.682]
#pixelsize
#0.079142
#Frame dimensions
#(2048, 2048)
#
