2theta chi X Y I
76.534553   -0.841024   1027.110000   1293.280000   70931.270
65.298738   -19.385251   1379.170000   1553.580000   51933.840
68.937400   -14.810723   1288.110000   1460.160000   22795.070
99.144577   4.716898   926.220000   872.060000   19489.690
98.271423   21.656284   595.460000   876.440000   19058.790
112.579732   -9.137854   1183.270000   598.920000   17182.880
60.894875   20.188044   626.120000   1661.280000   15825.390
57.981098   8.398910   856.140000   1702.520000   15486.200
80.183892   -32.217519   1672.670000   1258.620000   13318.810
81.096443   -24.835799   1497.400000   1224.700000   13145.990
87.654190   -8.864308   1176.090000   1086.190000   11799.930
79.397413   12.452592   780.270000   1242.530000   11662.160
79.130030   9.907510   828.680000   1246.060000   10727.930
114.516763   10.431963   819.910000   552.840000   10271.900
107.496090   7.570731   873.560000   706.970000   10010.520
56.889385   -4.124859   1085.800000   1725.830000   9107.770
103.606008   -28.274123   1579.390000   754.630000   8515.140
90.026703   -10.992792   1216.490000   1042.280000   8262.020
120.464143   -23.857031   1481.200000   364.840000   6598.440
78.052289   30.267910   399.870000   1297.190000   6505.450
79.160219   23.848247   548.250000   1260.320000   6137.870
81.136727   -20.142696   1396.710000   1217.560000   5781.180
88.591259   -28.118193   1573.490000   1073.130000   5481.590
72.051148   -10.152668   1199.060000   1387.530000   5182.440
113.231211   -17.826097   1352.760000   568.030000   5055.990
92.704629   27.441649   467.050000   984.600000   4950.230
79.538005   19.577819   638.870000   1246.590000   4761.410
91.205740   2.474240   967.150000   1019.900000   4673.940
89.005025   1.904466   977.500000   1060.310000   4649.480
94.765605   16.446048   702.520000   949.880000   4413.680
103.114013   30.888995   383.770000   754.580000   4400.610
93.495888   -14.444946   1283.340000   976.690000   4305.200
125.345943   16.240546   707.200000   261.110000   4170.570
105.506878   -6.911502   1140.930000   748.400000   4160.120
64.569683   16.494785   701.050000   1560.170000   4044.720
89.144365   -34.358210   1730.330000   1063.320000   3856.170
102.633395   5.836904   905.640000   804.810000   3693.430
111.142502   -2.253234   1055.140000   634.640000   3277.590
102.354359   16.407089   703.420000   801.020000   3232.590
94.215335   34.528075   289.690000   945.970000   3125.110
86.041889   -7.532045   1151.050000   1115.850000   3088.730
96.030595   -17.245222   1339.110000   926.870000   2830.160
113.052753   -22.884134   1458.760000   556.690000   2775.350
78.856105   8.159463   861.480000   1250.420000   2670.740
77.349047   33.116496   327.890000   1321.030000   2634.420
106.253562   20.420350   621.540000   713.500000   2612.620
124.093720   -13.844615   1274.860000   306.950000   2377.760
107.932916   -14.228934   1280.510000   691.440000   2278.070
117.289662   -2.668715   1063.250000   497.790000   2195.880
73.777392   -25.918851   1520.650000   1382.650000   2124.740
93.803378   -35.630825   1765.960000   958.470000   2077.070
105.286700   -31.588492   1660.860000   706.310000   2052.310
97.299547   -4.811565   1101.370000   907.290000   1952.150
60.591679   -3.564914   1075.860000   1633.060000   1878.930
87.760573   -23.722452   1473.720000   1088.400000   1877.760
78.850324   -37.620472   1819.620000   1305.460000   1746.380
92.886537   -30.310162   1626.900000   982.640000   1676.950
91.202976   22.557530   576.200000   1016.970000   1646.400
79.571087   16.485197   701.500000   1242.550000   1591.710
99.278711   -21.471391   1426.670000   858.780000   1576.400
64.731484   5.439615   911.320000   1538.140000   1466.190
111.877446   9.289599   841.450000   613.020000   1399.400
117.554352   -11.004095   1219.190000   482.300000   1361.220
118.080007   -28.560136   1588.650000   403.050000   1343.440
65.177375   25.046766   521.920000   1574.920000   1331.830
90.131265   10.877758   810.650000   1039.110000   1277.200
126.355552   1.773516   982.110000   264.380000   1253.580
115.173169   24.331968   537.370000   496.910000   1183.420
89.207936   30.505273   393.710000   1057.160000   1105.270
89.536695   36.143035   245.420000   1050.380000   1055.910
106.583451   -1.991196   1050.010000   728.620000   1019.630
111.239287   34.228353   296.950000   544.570000   943.570
100.518460   25.554918   510.170000   824.170000   887.260
80.664439   -14.638352   1285.920000   1221.220000   860.610
94.744899   -4.209207   1090.080000   954.930000   797.370
106.149564   -33.530759   1711.330000   678.470000   772.050
108.991319   -19.039116   1377.040000   659.840000   708.970
119.282963   12.776826   775.110000   434.930000   706.880
99.324507   13.639240   757.840000   863.720000   703.030
87.375281   1.551576   983.890000   1090.230000   655.210
126.379590   4.838228   925.430000   261.100000   646.940
91.578358   -12.430327   1244.110000   1013.220000   550.970
112.721888   -26.131625   1530.970000   552.130000   492.940
# File created at Tue Oct  8 11:14:03 2024 with IOLaueTools.py
# From: Ge0001.dat
# Output Folder: /home/micha/lauetoolsgithub/LaueTools/Examples/Ge
# Calibration parameters
# dd     :   77.088
# xcen     :   1012.45
# ycen     :   1049.92
# xbet     :   0.423
# xgam     :   0.172
# pixelsize     :   0.0734
# CCDLabel     :   sCMOS
# framedim     :   (2018, 2016)
# detectordiameter     :   165.0
# kf_direction     :   Z>0